Folder: XRD_xls_raw_converter/Arumetsa

Note: README.md
# XRD_xls_raw_converter
A python code to convert xls file to raw file

File: Aru_XRD.txt
2theta	Intensity
3	7713
3.24522	5341
3.49043	4516
3.73565	3981
3.98087	3409
4.22608	3100
4.4713	2716
4.71652	2416
4.96173	2258
5.20695	1964
5.45217	1883
5.69738	1788
5.9426	1886
6.18782	2060
6.43303	1805
6.67825	1615
6.92347	1635
7.16868	1704
7.4139	1633
7.65912	1720
7.90433	1886
8.14955	2051
8.39477	2479
8.63998	3355
8.8852	3459
9.13042	1610
9.37563	1090
9.62085	897
9.86607	820
10.1113	743
10.3565	842
10.6017	757
10.8469	769
11.0922	783
11.3374	774
11.5826	849
11.8278	1047
12.073	1533
12.3182	4276
12.5635	1716
12.8087	881
13.0539	660
13.2991	600
13.5443	629
13.7895	631
14.0348	537
14.28	503
14.5252	478
14.7704	477
15.0156	614
15.2608	495
15.5061	471
15.7513	489
15.9965	465
16.2417	480
16.4869	488
16.7321	504
16.9774	491
17.2226	591
17.4678	741
17.713	1220
17.9582	894
18.2034	731
18.4487	701
18.6939	805
18.9391	684
19.1843	1040
19.4295	1324
19.6747	3777
19.92	3269
20.1652	2087
20.4104	2097
20.6556	1796
20.9008	3870
21.146	1699
21.3913	1544
21.6365	1276
21.8817	1176
22.1269	1177
22.3721	1206
22.6173	1122
22.8626	1695
23.1078	1490
23.353	1374
23.5982	1938
23.8434	1741
24.0886	1706
24.3339	1963
24.5791	1849
24.8243	3480
25.0695	2561
25.3147	2601
25.5599	2426
25.8052	1668
26.0504	1733
26.2956	2392
26.5408	9473
26.786	4720
27.0312	3241
27.2765	1984
27.5217	2795
27.7669	2949
28.0121	2308
28.2573	1684
28.5025	1464
28.7478	1198
28.993	1235
29.2382	1260
29.4834	1701
29.7286	1731
29.9738	1582
30.2191	1393
30.4643	1443
30.7095	1533
30.9547	1427
31.1999	1314
31.4451	1054
31.6904	926
31.9356	1175
32.1808	1071
32.426	956
32.6712	801
32.9164	1062
33.1617	1167
33.4069	1023
33.6521	1051
33.8973	1209
34.1425	1691
34.3877	2115
34.633	2859
34.8782	3825
35.1234	2552
35.3686	1820
35.6138	1754
35.859	1551
36.1043	1440
36.3495	1374
36.5947	2390
36.8399	1810
37.0851	1595
37.3303	1609
37.5756	1963
37.8208	1683
38.066	1086
38.3112	1469
38.5564	1298
38.8016	944
39.0469	951
39.2921	1156
39.5373	1708
39.7825	969
40.0277	1163
40.2729	1583
40.5182	880
40.7634	1008
41.0086	1133
41.2538	1207
41.499	1072
41.7442	1269
41.9895	1048
42.2347	1220
42.4799	1467
42.7251	902
42.9703	774
43.2155	780
43.4608	729
43.706	732
43.9512	760
44.1964	769
44.4416	737
44.6868	912
44.9321	1156
45.1773	1255
45.4225	1540
45.6677	1440
45.9129	1279
46.1581	880
46.4034	800
46.6486	707
46.8938	720
47.139	764
47.3842	655
47.6294	645
47.8747	720
48.1199	770
48.3651	626
48.6103	636
48.8555	621
49.1007	681
49.346	725
49.5912	698
49.8364	726
50.0816	3004
50.3268	728
50.572	927
50.8173	735
51.0625	743
51.3077	588
51.5529	521
51.7981	432
52.0433	488
52.2886	542
52.5338	601
52.779	642
53.0242	618
53.2694	760
53.5146	802
53.7599	990
54.0051	1122
54.2503	1105
54.4955	1139
54.7407	1344
54.9859	1751
55.2312	1512
55.4764	1380
55.7216	1290
55.9668	1147
56.212	1051
56.4572	945
56.7025	996
56.9477	842
57.1929	815
57.4381	828
57.6833	783
57.9285	752
58.1738	692
58.419	710
58.6642	782
58.9094	735
59.1546	740
59.3998	831
59.6451	974
59.8903	2690
60.1355	1478
60.3807	972
60.6259	1018
60.8711	901
61.1164	1025
61.3616	1367
61.6068	1788
61.852	1599
62.0972	1285
62.3424	1230
62.5877	1013
62.8329	783
63.0781	752
63.3233	667
63.5685	670
63.8137	826
64.059	930
64.3042	637
64.5494	646
64.7946	664
65.0398	695
65.285	677
65.5303	636
65.7755	721
66.0207	605
66.2659	661
66.5111	576
66.7563	568
67.0016	634
67.2468	628
67.492	679
67.7372	1257
67.9824	854
68.2276	1523
68.4729	1088
68.7181	773
68.9633	720
69.2085	804
69.4537	840
69.6989	801
69.9442	784
70.1894	862
70.4346	847
70.6798	739
70.925	699
71.1702	760
71.4155	680
71.6607	696
71.9059	806
72.1511	889
72.3963	917
72.6415	1095
72.8868	1013
73.1013	970