Folder: XRD_xls_raw_converter/Aseri

Note: README.md
# XRD_xls_raw_converter
A python code to convert xls file to raw file

File: Aseri_XRD.xy
2theta	Intensity
3	7958
3.24522	5371
3.49043	4483
3.73565	3927
3.98087	3400
4.22608	2947
4.4713	2616
4.71652	2355
4.96173	2016
5.20695	1911
5.45217	1819
5.69738	1735
5.9426	1767
6.18782	2261
6.43303	1671
6.67825	1578
6.92347	1651
7.16868	1639
7.4139	1689
7.65912	1823
7.90433	2025
8.14955	2380
8.39477	2881
8.63998	4089
8.8852	5525
9.13042	1926
9.37563	1128
9.62085	895
9.86607	735
10.1113	667
10.3565	690
10.6017	719
10.8469	789
11.0922	677
11.3374	761
11.5826	779
11.8278	819
12.073	1172
12.3182	2576
12.5635	1411
12.8087	810
13.0539	697
13.2991	731
13.5443	747
13.7895	520
14.0348	515
14.28	489
14.5252	554
14.7704	549
15.0156	606
15.2608	470
15.5061	494
15.7513	417
15.9965	448
16.2417	467
16.4869	472
16.7321	514
16.9774	535
17.2226	619
17.4678	800
17.713	2075
17.9582	1020
18.2034	837
18.4487	805
18.6939	992
18.9391	687
19.1843	958
19.4295	1265
19.6747	4637
19.92	3037
20.1652	1914
20.4104	1704
20.6556	1769
20.9008	6392
21.146	1130
21.3913	1038
21.6365	1118
21.8817	923
22.1269	846
22.3721	1206
22.6173	1170
22.8626	1614
23.1078	1183
23.353	1462
23.5982	1642
23.8434	1805
24.0886	1514
24.3339	1689
24.5791	1760
24.8243	2278
25.0695	2653
25.3147	2706
25.5599	2722
25.8052	1785
26.0504	1777
26.2956	2392
26.5408	16992
26.786	8917
27.0312	4250
27.2765	2545
27.5217	4174
27.7669	2348
28.0121	1534
28.2573	1304
28.5025	1405
28.7478	1322
28.993	1351
29.2382	1390
29.4834	1451
29.7286	2201
29.9738	1768
30.2191	1295
30.4643	1300
30.7095	1694
30.9547	1316
31.1999	1602
31.4451	1093
31.6904	995
31.9356	1262
32.1808	1063
32.426	887
32.6712	750
32.9164	778
33.1617	982
33.4069	869
33.6521	930
33.8973	924
34.1425	1336
34.3877	2448
34.633	3347
34.8782	4473
35.1234	2420
35.3686	1520
35.6138	1459
35.859	1315
36.1043	1107
36.3495	1388
36.5947	3937
36.8399	1539
37.0851	1570
37.3303	1777
37.5756	2078
37.8208	1644
38.066	1120
38.3112	969
38.5564	916
38.8016	720
39.0469	682
39.2921	862
39.5373	2706
39.7825	1003
40.0277	1181
40.2729	2298
40.5182	916
40.7634	1048
41.0086	1052
41.2538	959
41.499	981
41.7442	1277
41.9895	1227
42.2347	1286
42.4799	2309
42.7251	1012
42.9703	768
43.2155	753
43.4608	751
43.706	739
43.9512	812
44.1964	702
44.4416	770
44.6868	874
44.9321	1191
45.1773	1414
45.4225	2056
45.6677	1776
45.9129	1666
46.1581	1025
46.4034	867
46.6486	705
46.8938	694
47.139	641
47.3842	703
47.6294	559
47.8747	623
48.1199	657
48.3651	529
48.6103	500
48.8555	551
49.1007	578
49.346	615
49.5912	594
49.8364	627
50.0816	6688
50.3268	924
50.572	995
50.8173	821
51.0625	540
51.3077	414
51.5529	428
51.7981	397
52.0433	486
52.2886	556
52.5338	550
52.779	653
53.0242	610
53.2694	637
53.5146	723
53.7599	937
54.0051	1097
54.2503	978
54.4955	977
54.7407	1342
54.9859	2294
55.2312	1614
55.4764	1441
55.7216	1466
55.9668	1231
56.212	1114
56.4572	1169
56.7025	903
56.9477	852
57.1929	918
57.4381	814
57.6833	814
57.9285	657
58.1738	667
58.419	683
58.6642	768
58.9094	790
59.1546	770
59.3998	774
59.6451	953
59.8903	4590
60.1355	1715
60.3807	870
60.6259	957
60.8711	934
61.1164	1082
61.3616	1577
61.6068	2115
61.852	1628
62.0972	1004
62.3424	1050
62.5877	838
62.8329	722
63.0781	625
63.3233	560
63.5685	547
63.8137	702
64.059	964
64.3042	613
64.5494	585
64.7946	617
65.0398	604
65.285	643
65.5303	641
65.7755	743
66.0207	591
66.2659	636
66.5111	576
66.7563	546
67.0016	610
67.2468	614
67.492	712
67.7372	2178
67.9824	1221
68.2276	2476
68.4729	1498
68.7181	705
68.9633	763
69.2085	786
69.4537	916
69.6989	858
69.9442	790
70.1894	942
70.4346	836
70.6798	738
70.925	663
71.1702	702
71.4155	717
71.6607	717
71.9059	739
72.1511	839
72.3963	1056
72.6415	1203
72.8868	1100
73.1013	1014