Folder: XRD_xls_raw_converter/Kunda

Note: README.md
# XRD_xls_raw_converter
A python code to convert xls file to raw file

File: Kunda_XRD.txt
2theta	Intensity
3	6987
3.24522	4693
3.49043	3918
3.73565	3529
3.98087	2947
4.22608	2602
4.4713	2253
4.71652	2018
4.96173	1800
5.20695	1685
5.45217	1598
5.69738	1480
5.9426	1500
6.18782	1963
6.43303	1507
6.67825	1435
6.92347	1442
7.16868	1483
7.4139	1496
7.65912	1469
7.90433	1633
8.14955	2013
8.39477	2322
8.63998	3108
8.8852	3182
9.13042	1427
9.37563	969
9.62085	724
9.86607	691
10.1113	710
10.3565	641
10.6017	627
10.8469	663
11.0922	636
11.3374	692
11.5826	678
11.8278	756
12.073	916
12.3182	1558
12.5635	1082
12.8087	653
13.0539	608
13.2991	585
13.5443	703
13.7895	525
14.0348	524
14.28	493
14.5252	506
14.7704	516
15.0156	603
15.2608	484
15.5061	484
15.7513	464
15.9965	439
16.2417	462
16.4869	430
16.7321	477
16.9774	519
17.2226	586
17.4678	752
17.713	1501
17.9582	798
18.2034	657
18.4487	610
18.6939	727
18.9391	600
19.1843	974
19.4295	1339
19.6747	4747
19.92	2998
20.1652	1955
20.4104	1726
20.6556	1780
20.9008	4597
21.146	1165
21.3913	1124
21.6365	1127
21.8817	910
22.1269	882
22.3721	1115
22.6173	1069
22.8626	1614
23.1078	1165
23.353	1493
23.5982	1552
23.8434	1640
24.0886	1373
24.3339	1499
24.5791	1562
24.8243	1766
25.0695	2046
25.3147	2332
25.5599	2422
25.8052	1528
26.0504	1515
26.2956	1964
26.5408	23706
26.786	5904
27.0312	3522
27.2765	2202
27.5217	2829
27.7669	2118
28.0121	1385
28.2573	1254
28.5025	1242
28.7478	1341
28.993	1441
29.2382	1238
29.4834	1313
29.7286	2239
29.9738	1551
30.2191	1257
30.4643	1080
30.7095	1426
30.9547	1114
31.1999	1521
31.4451	969
31.6904	885
31.9356	1175
32.1808	910
32.426	838
32.6712	655
32.9164	668
33.1617	708
33.4069	750
33.6521	805
33.8973	884
34.1425	1240
34.3877	2473
34.633	3489
34.8782	4511
35.1234	2393
35.3686	1408
35.6138	1096
35.859	1169
36.1043	1033
36.3495	1457
36.5947	3269
36.8399	1508
37.0851	1483
37.3303	1735
37.5756	1981
37.8208	1594
38.066	1041
38.3112	921
38.5564	841
38.8016	688
39.0469	690
39.2921	878
39.5373	2126
39.7825	965
40.0277	1217
40.2729	1985
40.5182	892
40.7634	1007
41.0086	936
41.2538	921
41.499	939
41.7442	1190
41.9895	1182
42.2347	1384
42.4799	2217
42.7251	932
42.9703	746
43.2155	630
43.4608	746
43.706	719
43.9512	775
44.1964	748
44.4416	676
44.6868	823
44.9321	1018
45.1773	1150
45.4225	1605
45.6677	1559
45.9129	1490
46.1581	930
46.4034	798
46.6486	704
46.8938	687
47.139	638
47.3842	562
47.6294	513
47.8747	584
48.1199	654
48.3651	507
48.6103	502
48.8555	494
49.1007	530
49.346	545
49.5912	546
49.8364	644
50.0816	6349
50.3268	762
50.572	787
50.8173	656
51.0625	439
51.3077	438
51.5529	427
51.7981	430
52.0433	433
52.2886	506
52.5338	508
52.779	658
53.0242	592
53.2694	676
53.5146	750
53.7599	948
54.0051	1008
54.2503	1015
54.4955	914
54.7407	1415
54.9859	1968
55.2312	1733
55.4764	1413
55.7216	1399
55.9668	1185
56.212	1094
56.4572	941
56.7025	957
56.9477	856
57.1929	873
57.4381	797
57.6833	742
57.9285	647
58.1738	595
58.419	672
58.6642	733
58.9094	699
59.1546	734
59.3998	801
59.6451	924
59.8903	4553
60.1355	1525
60.3807	869
60.6259	902
60.8711	912
61.1164	995
61.3616	1480
61.6068	2094
61.852	1571
62.0972	1083
62.3424	922
62.5877	782
62.8329	687
63.0781	578
63.3233	524
63.5685	554
63.8137	610
64.059	826
64.3042	594
64.5494	532
64.7946	589
65.0398	662
65.285	630
65.5303	596
65.7755	615
66.0207	563
66.2659	583
66.5111	515
66.7563	546
67.0016	544
67.2468	594
67.492	667
67.7372	1618
67.9824	1194
68.2276	2883
68.4729	1380
68.7181	688
68.9633	754
69.2085	720
69.4537	834
69.6989	798
69.9442	793
70.1894	874
70.4346	743
70.6798	680
70.925	662
71.1702	638
71.4155	608
71.6607	593
71.9059	673
72.1511	736
72.3963	967
72.6415	1139
72.8868	1123
73.1013	1076