Folder: XRD_xls_raw_converter/LOSA

Note: README.md
# XRD_xls_raw_converter
A python code to convert xls file to raw file

File: LOSA.txt
2theta	Intensity
3	5469
3.24522	3569
3.49043	3214
3.73565	3464
3.98087	2267
4.22608	2011
4.4713	1861
4.71652	1686
4.96173	1501
5.20695	1384
5.45217	1385
5.69738	1242
5.9426	1192
6.18782	1151
6.43303	1105
6.67825	1040
6.92347	1031
7.16868	949
7.4139	949
7.65912	928
7.90433	895
8.14955	852
8.39477	840
8.63998	935
8.8852	799
9.13042	799
9.37563	811
9.62085	777
9.86607	738
10.1113	763
10.3565	752
10.6017	805
10.8469	898
11.0922	950
11.3374	1228
11.5826	834
11.8278	730
12.073	671
12.3182	664
12.5635	672
12.8087	623
13.0539	633
13.2991	625
13.5443	660
13.7895	539
14.0348	539
14.28	558
14.5252	530
14.7704	550
15.0156	586
15.2608	570
15.5061	576
15.7513	592
15.9965	587
16.2417	606
16.4869	581
16.7321	578
16.9774	568
17.2226	583
17.4678	713
17.713	685
17.9582	3209
18.2034	949
18.4487	1804
18.6939	793
18.9391	631
19.1843	610
19.4295	619
19.6747	697
19.92	662
20.1652	666
20.4104	622
20.6556	676
20.9008	1415
21.146	619
21.3913	577
21.6365	663
21.8817	647
22.1269	643
22.3721	699
22.6173	762
22.8626	959
23.1078	1994
23.353	869
23.5982	798
23.8434	745
24.0886	855
24.3339	653
24.5791	744
24.8243	734
25.0695	766
25.3147	869
25.5599	974
25.8052	920
26.0504	875
26.2956	968
26.5408	4096
26.786	1574
27.0312	1282
27.2765	1085
27.5217	1365
27.7669	1110
28.0121	1085
28.2573	1124
28.5025	1227
28.7478	1528
28.993	1745
29.2382	4007
29.4834	9570
29.7286	2013
29.9738	1499
30.2191	1257
30.4643	1180
30.7095	1568
30.9547	1399
31.1999	1771
31.4451	1669
31.6904	1097
31.9356	1308
32.1808	1122
32.426	1055
32.6712	1202
32.9164	966
33.1617	1165
33.4069	1017
33.6521	957
33.8973	1476
34.1425	3678
34.3877	1106
34.633	1010
34.8782	881
35.1234	934
35.3686	947
35.6138	1134
35.859	1599
36.1043	1371
36.3495	794
36.5947	1021
36.8399	713
37.0851	780
37.3303	932
37.5756	1250
37.8208	1926
38.066	980
38.3112	809
38.5564	798
38.8016	796
39.0469	841
39.2921	2038
39.5373	2544
39.7825	774
40.0277	731
40.2729	867
40.5182	705
40.7634	736
41.0086	823
41.2538	657
41.499	719
41.7442	735
41.9895	641
42.2347	724
42.4799	908
42.7251	757
42.9703	1203
43.2155	2769
43.4608	873
43.706	712
43.9512	748
44.1964	734
44.4416	796
44.6868	768
44.9321	812
45.1773	774
45.4225	725
45.6677	787
45.9129	858
46.1581	809
46.4034	844
46.6486	811
46.8938	1209
47.139	3074
47.3842	2357
47.6294	2390
47.8747	886
48.1199	843
48.3651	1791
48.6103	2511
48.8555	775
49.1007	890
49.346	817
49.5912	800
49.8364	843
50.0816	1797
50.3268	1162
50.572	1422
50.8173	1760
51.0625	853
51.3077	683
51.5529	644
51.7981	697
52.0433	657
52.2886	631
52.5338	571
52.779	639
53.0242	604
53.2694	542
53.5146	603
53.7599	558
54.0051	741
54.2503	1075
54.4955	847
54.7407	707
54.9859	779
55.2312	698
55.4764	679
55.7216	523
55.9668	563
56.212	586
56.4572	760
56.7025	838
56.9477	574
57.1929	781
57.4381	1640
57.6833	692
57.9285	679
58.1738	812
58.419	708
58.6642	571
58.9094	533
59.1546	507
59.3998	557
59.6451	545
59.8903	1198
60.1355	687
60.3807	573
60.6259	1189
60.8711	1069
61.1164	880
61.3616	915
61.6068	717
61.852	538
62.0972	484
62.3424	613
62.5877	852
62.8329	671
63.0781	767
63.3233	611
63.5685	496
63.8137	492
64.059	729
64.3042	733
64.5494	823
64.7946	914
65.0398	516
65.285	467
65.5303	717
65.7755	603
66.0207	384
66.2659	468
66.5111	380
66.7563	407
67.0016	420
67.2468	414
67.492	473
67.7372	674
67.9824	625
68.2276	726
68.4729	527
68.7181	386
68.9633	416
69.2085	502
69.4537	440
69.6989	375
69.9442	373
70.1894	538
70.4346	455
70.6798	382
70.925	362
71.1702	391
71.4155	474
71.6607	589
71.9059	554
72.1511	419
72.3963	357
72.6415	414
72.8868	732
73.1013	594